{
    "resourceType": "Bundle",
    "id": "369e5c4b-98c1-4186-81db-7567d836351a",
    "type": "transaction",
    "entry": [
        {
            "fullUrl": "urn:uuid:e91fc206-e251-4b70-812e-63e63d85780b",
            "resource": {
                "resourceType": "Organization",
                "id": "e91fc206-e251-4b70-812e-63e63d85780b",
                "meta": {
                    "profile": [
                        "http://hl7.org/fhir/us/core/StructureDefinition/us-core-organization"
                    ]
                },
                "active": true,
                "name": "Acme Lab",
                "telecom": [
                    {
                        "system": "phone",
                        "value": "(+1) 734-677-7777",
                        "use": "work"
                    }
                ],
                "address": [
                    {
                        "line": [
                            "3300 Washtenaw Avenue Suite 227"
                        ],
                        "state": "MA",
                        "postalCode": "01002",
                        "country": "USA",
                        "district": "Amherst"
                    }
                ],
                "identifier": [
                    {
                        "system": "http://hl7.org.fhir/sid/us-npi",
                        "value": "1234567890"
                    },
                    {
                        "system": "urn:oid:2.16.840.1.113883.4.7",
                        "value": "12D3456789"
                    }
                ]
            },
            "request": {
                "method": "PUT",
                "url": "Organization/e91fc206-e251-4b70-812e-63e63d85780b"
            }
        },
        {
            "fullUrl": "urn:uuid:8d21f7e0-6d2e-41b3-b883-db5b84550806",
            "resource": {
                "resourceType": "Encounter",
                "id": "8d21f7e0-6d2e-41b3-b883-db5b84550806",
                "meta": {
                    "profile": [
                        "http://hl7.org/fhir/us/core/StructureDefinition/us-core-encounter"
                    ]
                },
                "identifier": [
                    {
                        "system": "urn:example:healthcare:system",
                        "value": "1234"
                    }
                ],
                "status": "finished",
                "class": {
                    "system": "http://terminology.hl7.org/CodeSystem/v3-ActCode",
                    "code": "AMB",
                    "display": "Ambulatory"
                },
                "type": [
                    {
                        "coding": [
                            {
                                "system": "http://snomed.info/sct",
                                "code": "866149003",
                                "display": "Annual visit (procedure)"
                            }
                        ]
                    }
                ],
                "period": {
                    "start": "2015-02-11T09:00:14+00:00",
                    "end": "2015-02-11T10:00:14+00:00"
                },
                "reasonCode": [
                    {
                        "coding": [
                            {
                                "system": "http://snomed.info/sct",
                                "code": "168000",
                                "display": "Typhlolithiasis"
                            }
                        ]
                    }
                ],
                "hospitalization": {
                    "dischargeDisposition": {
                        "coding": [
                            {
                                "system": "http://terminology.hl7.org/CodeSystem/discharge-disposition",
                                "code": "home",
                                "display": "Home"
                            }
                        ]
                    }
                },
                "subject": {
                    "reference": "Patient/43d79100-1a10-44e5-a0fb-8c7ba02e9da5"
                }
            },
            "request": {
                "method": "PUT",
                "url": "Encounter/8d21f7e0-6d2e-41b3-b883-db5b84550806"
            }
        },
        {
            "fullUrl": "urn:uuid:43d79100-1a10-44e5-a0fb-8c7ba02e9da5",
            "resource": {
                "resourceType": "Patient",
                "id": "43d79100-1a10-44e5-a0fb-8c7ba02e9da5",
                "meta": {
                    "profile": [
                        "http://hl7.org/fhir/us/core/StructureDefinition/us-core-patient"
                    ]
                },
                "extension": [
                    {
                        "extension": [
                            {
                                "url": "ombCategory",
                                "valueCoding": {
                                    "system": "urn:oid:2.16.840.1.113883.6.238",
                                    "code": "2028-9",
                                    "display": "Asian"
                                }
                            },
                            {
                                "url": "text",
                                "valueString": "asian"
                            }
                        ],
                        "url": "http://hl7.org/fhir/us/core/StructureDefinition/us-core-race"
                    },
                    {
                        "extension": [
                            {
                                "url": "ombCategory",
                                "valueCoding": {
                                    "system": "urn:oid:2.16.840.1.113883.6.238",
                                    "code": "2186-5",
                                    "display": "Not Hispanic or Latino"
                                }
                            },
                            {
                                "url": "text",
                                "valueString": "Not Hispanic or Latino"
                            }
                        ],
                        "url": "http://hl7.org/fhir/us/core/StructureDefinition/us-core-ethnicity"
                    },
                    {
                        "url": "http://hl7.org/fhir/us/core/StructureDefinition/us-core-birthsex",
                        "valueCode": "M"
                    }
                ],
                "identifier": [
                    {
                        "value": "1032704",
                        "system": "http://hospital.smarthealthit.org"
                    },
                    {
                        "use": "usual",
                        "type": {
                            "coding": [
                                {
                                    "system": "http://terminology.hl7.org/CodeSystem/v2-0203",
                                    "code": "MR",
                                    "display": "Medical Record Number"
                                }
                            ],
                            "text": "Medical Record Number"
                        },
                        "system": "urn:mrn:http://hl7.org/fhir/sid/us-mrn",
                        "value": "1032704"
                    },
                    {
                        "use": "usual",
                        "type": {
                            "coding": [
                                {
                                    "system": "http://terminology.hl7.org/CodeSystem/v2-0203",
                                    "code": "SS"
                                }
                            ],
                            "text": "Social Security Number"
                        },
                        "system": "http://hl7.org/fhir/sid/us-ssn",
                        "value": "123-456-7890"
                    }
                ],
                "name": [
                    {
                        "given": [
                            "Child"
                        ],
                        "family": "Example",
                        "use": "usual"
                    }
                ],
                "telecom": [
                    {
                        "system": "phone",
                        "value": "555-555-5555",
                        "use": "home"
                    }
                ],
                "gender": "male",
                "birthDate": "2016-01-15",
                "address": [
                    {
                        "line": [
                            "49 Meadow St"
                        ],
                        "state": "OK",
                        "postalCode": "74047",
                        "country": "US",
                        "district": "Mounds"
                    }
                ],
                "communication": [
                    {
                        "language": {
                            "coding": [
                                {
                                    "system": "urn:ietf:bcp:47",
                                    "code": "en",
                                    "display": "English"
                                }
                            ]
                        }
                    }
                ]
            },
            "request": {
                "method": "PUT",
                "url": "Patient/43d79100-1a10-44e5-a0fb-8c7ba02e9da5"
            }
        },
        {
            "fullUrl": "urn:uuid:0ce47899-a28e-4142-a401-a87351e9def6",
            "resource": {
                "resourceType": "Practitioner",
                "id": "0ce47899-a28e-4142-a401-a87351e9def6",
                "meta": {
                    "profile": [
                        "http://hl7.org/fhir/us/core/StructureDefinition/us-core-practitioner"
                    ]
                },
                "identifier": [
                    {
                        "system": "http://hl7.org.fhir/sid/us-npi",
                        "value": "9941339108"
                    }
                ],
                "name": [
                    {
                        "given": [
                            "Ronald"
                        ],
                        "family": "Bone"
                    }
                ]
            },
            "request": {
                "method": "PUT",
                "url": "Practitioner/0ce47899-a28e-4142-a401-a87351e9def6"
            }
        },
        {
            "fullUrl": "urn:uuid:3c8b23a2-a562-447f-a1e5-7b560d96d155",
            "resource": {
                "resourceType": "Location",
                "id": "3c8b23a2-a562-447f-a1e5-7b560d96d155",
                "meta": {
                    "profile": [
                        "http://hl7.org/fhir/us/core/StructureDefinition/us-core-location"
                    ]
                },
                "status": "active",
                "name": "Health Level Seven International - Amherst",
                "telecom": [
                    {
                        "system": "phone",
                        "value": "(+1) 734-677-7777"
                    }
                ],
                "address": {
                    "line": [
                        "3300 Washtenaw Avenue Suite 227"
                    ],
                    "state": "MA",
                    "postalCode": "01002",
                    "country": "USA",
                    "district": "Amherst"
                }
            },
            "request": {
                "method": "PUT",
                "url": "Location/3c8b23a2-a562-447f-a1e5-7b560d96d155"
            }
        },
        {
            "fullUrl": "urn:uuid:c6b29f09-8586-4972-af45-3c54d74e0e0e",
            "resource": {
                "resourceType": "Immunization",
                "id": "c6b29f09-8586-4972-af45-3c54d74e0e0e",
                "meta": {
                    "profile": [
                        "http://hl7.org/fhir/us/core/StructureDefinition/us-core-immunization"
                    ]
                },
                "status": "completed",
                "reasonCode": [
                    {
                        "coding": [
                            {
                                "system": "http://terminology.hl7.org/CodeSystem/v3-ActReason",
                                "code": "IMMUNE",
                                "display": "Immunity"
                            }
                        ]
                    }
                ],
                "vaccineCode": {
                    "coding": [
                        {
                            "system": "http://hl7.org/fhir/sid/cvx",
                            "code": "135",
                            "display": "influenza, high dose seasonal, preservative-free"
                        }
                    ]
                },
                "occurrenceDateTime": "2016-01-08T00:00:00+00:00",
                "primarySource": true,
                "patient": {
                    "reference": "Patient/43d79100-1a10-44e5-a0fb-8c7ba02e9da5"
                },
                "encounter": {
                    "reference": "Encounter/8d21f7e0-6d2e-41b3-b883-db5b84550806"
                }
            },
            "request": {
                "method": "PUT",
                "url": "Immunization/c6b29f09-8586-4972-af45-3c54d74e0e0e"
            }
        },
        {
            "fullUrl": "urn:uuid:6278b988-7721-48b5-b258-d7a6f33ffa71",
            "resource": {
                "resourceType": "AllergyIntolerance",
                "id": "6278b988-7721-48b5-b258-d7a6f33ffa71",
                "meta": {
                    "profile": [
                        "http://hl7.org/fhir/us/core/StructureDefinition/us-core-allergyintolerance"
                    ]
                },
                "clinicalStatus": {
                    "coding": [
                        {
                            "system": "http://terminology.hl7.org/CodeSystem/allergyintolerance-clinical",
                            "code": "active",
                            "display": "Active"
                        }
                    ]
                },
                "verificationStatus": {
                    "coding": [
                        {
                            "system": "http://terminology.hl7.org/CodeSystem/allergyintolerance-verification",
                            "code": "confirmed",
                            "display": "Confirmed"
                        }
                    ]
                },
                "code": {
                    "coding": [
                        {
                            "system": "http://www.nlm.nih.gov/research/umls/rxnorm",
                            "code": "10109",
                            "display": "Streptomycin"
                        }
                    ]
                },
                "reaction": [
                    {
                        "manifestation": [
                            {
                                "coding": [
                                    {
                                        "system": "http://snomed.info/sct",
                                        "code": "271807003",
                                        "display": "Eruption of skin (disorder)"
                                    }
                                ]
                            }
                        ]
                    }
                ],
                "patient": {
                    "reference": "Patient/43d79100-1a10-44e5-a0fb-8c7ba02e9da5"
                }
            },
            "request": {
                "method": "PUT",
                "url": "AllergyIntolerance/6278b988-7721-48b5-b258-d7a6f33ffa71"
            }
        },
        {
            "fullUrl": "urn:uuid:040d61d5-42ac-4e1d-81fe-97d33748953d",
            "resource": {
                "resourceType": "Procedure",
                "id": "040d61d5-42ac-4e1d-81fe-97d33748953d",
                "meta": {
                    "profile": [
                        "http://hl7.org/fhir/us/core/StructureDefinition/us-core-procedure"
                    ]
                },
                "status": "completed",
                "code": {
                    "coding": [
                        {
                            "system": "http://snomed.info/sct",
                            "code": "128004",
                            "display": "Hand microscope examination of skin"
                        }
                    ]
                },
                "performedDateTime": "2002-05-23T00:00:00+00:00",
                "subject": {
                    "reference": "Patient/43d79100-1a10-44e5-a0fb-8c7ba02e9da5"
                },
                "encounter": {
                    "reference": "Encounter/8d21f7e0-6d2e-41b3-b883-db5b84550806"
                }
            },
            "request": {
                "method": "PUT",
                "url": "Procedure/040d61d5-42ac-4e1d-81fe-97d33748953d"
            }
        },
        {
            "fullUrl": "urn:uuid:c56ce10a-f924-44c6-897b-02e2d06d0af2",
            "resource": {
                "resourceType": "Observation",
                "id": "c56ce10a-f924-44c6-897b-02e2d06d0af2",
                "meta": {
                    "profile": [
                        "http://hl7.org/fhir/us/core/StructureDefinition/us-core-pulse-oximetry"
                    ]
                },
                "status": "final",
                "code": {
                    "coding": [
                        {
                            "system": "http://loinc.org",
                            "code": "59408-5",
                            "display": "Oxygen saturation in Arterial blood by Pulse oximetry"
                        },
                        {
                            "system": "http://loinc.org",
                            "code": "2708-6",
                            "display": "Oxygen saturation in Arterial blood"
                        }
                    ]
                },
                "category": [
                    {
                        "coding": [
                            {
                                "system": "http://terminology.hl7.org/CodeSystem/observation-category",
                                "code": "vital-signs",
                                "display": "Vital Signs"
                            }
                        ]
                    }
                ],
                "effectiveDateTime": "2005-07-05T00:00:00+00:00",
                "component": [
                    {
                        "code": {
                            "coding": [
                                {
                                    "system": "http://loinc.org",
                                    "code": "3151-8",
                                    "display": "Inhaled oxygen flow rate"
                                }
                            ],
                            "text": "Inhaled oxygen flow rate"
                        },
                        "valueQuantity": {
                            "value": 6.0,
                            "unit": "L/min",
                            "system": "http://unitsofmeasure.org",
                            "code": "L/min"
                        }
                    },
                    {
                        "code": {
                            "coding": [
                                {
                                    "system": "http://loinc.org",
                                    "code": "3150-0",
                                    "display": "Inhaled oxygen concentration"
                                }
                            ],
                            "text": "Inhaled oxygen concentration"
                        },
                        "valueQuantity": {
                            "value": 90.0,
                            "unit": "%",
                            "system": "http://unitsofmeasure.org",
                            "code": "%"
                        }
                    }
                ],
                "subject": {
                    "reference": "Patient/43d79100-1a10-44e5-a0fb-8c7ba02e9da5"
                }
            },
            "request": {
                "method": "PUT",
                "url": "Observation/c56ce10a-f924-44c6-897b-02e2d06d0af2"
            }
        },
        {
            "fullUrl": "urn:uuid:734a1e2f-100c-48c9-a304-709fe8fe07bd",
            "resource": {
                "resourceType": "Observation",
                "id": "734a1e2f-100c-48c9-a304-709fe8fe07bd",
                "meta": {
                    "profile": [
                        "http://hl7.org/fhir/us/core/StructureDefinition/us-core-smokingstatus"
                    ]
                },
                "status": "final",
                "code": {
                    "coding": [
                        {
                            "system": "http://loinc.org",
                            "code": "72166-2",
                            "display": "Tobacco smoking status"
                        }
                    ]
                },
                "category": [
                    {
                        "coding": [
                            {
                                "system": "http://terminology.hl7.org/CodeSystem/observation-category",
                                "code": "social-history",
                                "display": "Social History"
                            }
                        ]
                    }
                ],
                "issued": "2002-05-23T00:00:00+00:00",
                "effectiveDateTime": "2005-07-05T00:00:00+00:00",
                "valueCodeableConcept": {
                    "coding": [
                        {
                            "system": "http://snomed.info/sct",
                            "code": "8517006",
                            "display": "Former Smoker"
                        }
                    ]
                },
                "subject": {
                    "reference": "Patient/43d79100-1a10-44e5-a0fb-8c7ba02e9da5"
                }
            },
            "request": {
                "method": "PUT",
                "url": "Observation/734a1e2f-100c-48c9-a304-709fe8fe07bd"
            }
        },
        {
            "fullUrl": "urn:uuid:a4cde129-9497-4a20-8669-6a34fad9fbaf",
            "resource": {
                "resourceType": "Observation",
                "id": "a4cde129-9497-4a20-8669-6a34fad9fbaf",
                "meta": {
                    "profile": [
                        "http://hl7.org/fhir/us/core/StructureDefinition/us-core-observation-lab"
                    ]
                },
                "status": "final",
                "code": {
                    "coding": [
                        {
                            "system": "http://loinc.org",
                            "code": "8839-3",
                            "display": "Aorta root Oxygen saturation"
                        }
                    ]
                },
                "category": [
                    {
                        "coding": [
                            {
                                "system": "http://terminology.hl7.org/CodeSystem/observation-category",
                                "code": "laboratory",
                                "display": "Laboratory"
                            }
                        ]
                    }
                ],
                "effectiveDateTime": "2005-07-05T00:00:00+00:00",
                "valueQuantity": {
                    "value": 90.0,
                    "unit": "%",
                    "system": "http://unitsofmeasure.org",
                    "code": "%"
                },
                "subject": {
                    "reference": "Patient/43d79100-1a10-44e5-a0fb-8c7ba02e9da5"
                }
            },
            "request": {
                "method": "PUT",
                "url": "Observation/a4cde129-9497-4a20-8669-6a34fad9fbaf"
            }
        },
        {
            "fullUrl": "urn:uuid:70082dc2-910a-4561-9e5c-d1b83302c6ca",
            "resource": {
                "resourceType": "DiagnosticReport",
                "id": "70082dc2-910a-4561-9e5c-d1b83302c6ca",
                "meta": {
                    "profile": [
                        "http://hl7.org/fhir/us/core/StructureDefinition/us-core-diagnosticreport-lab"
                    ]
                },
                "status": "final",
                "category": [
                    {
                        "coding": [
                            {
                                "system": "http://terminology.hl7.org/CodeSystem/v2-0074",
                                "code": "LAB",
                                "display": "Laboratory"
                            }
                        ]
                    }
                ],
                "code": {
                    "coding": [
                        {
                            "system": "http://loinc.org",
                            "code": "10232-7",
                            "display": "Oxygen content in Aorta root"
                        }
                    ]
                },
                "effectiveDateTime": "2011-02-01T08:39:30+00:00",
                "issued": "2011-01-01T00:00:00+00:00",
                "subject": {
                    "reference": "Patient/43d79100-1a10-44e5-a0fb-8c7ba02e9da5"
                },
                "encounter": {
                    "reference": "Encounter/8d21f7e0-6d2e-41b3-b883-db5b84550806"
                },
                "performer": [
                    {
                        "reference": "Practitioner/0ce47899-a28e-4142-a401-a87351e9def6"
                    }
                ],
                "result": [
                    {
                        "reference": "Observation/a4cde129-9497-4a20-8669-6a34fad9fbaf"
                    }
                ]
            },
            "request": {
                "method": "PUT",
                "url": "DiagnosticReport/70082dc2-910a-4561-9e5c-d1b83302c6ca"
            }
        },
        {
            "fullUrl": "urn:uuid:fb6c0942-6381-4956-861b-12e11fcb82eb",
            "resource": {
                "resourceType": "Condition",
                "id": "fb6c0942-6381-4956-861b-12e11fcb82eb",
                "meta": {
                    "profile": [
                        "http://hl7.org/fhir/us/core/StructureDefinition/us-core-condition"
                    ]
                },
                "clinicalStatus": {
                    "coding": [
                        {
                            "system": "http://terminology.hl7.org/CodeSystem/condition-clinical",
                            "code": "active",
                            "display": "Active"
                        }
                    ]
                },
                "verificationStatus": {
                    "coding": [
                        {
                            "system": "http://terminology.hl7.org/CodeSystem/condition-ver-status",
                            "code": "confirmed",
                            "display": "Confirmed"
                        }
                    ]
                },
                "category": [
                    {
                        "coding": [
                            {
                                "system": "http://hl7.org/fhir/us/core/CodeSystem/condition-category",
                                "code": "health-concern",
                                "display": "Health Concern"
                            }
                        ]
                    }
                ],
                "code": {
                    "coding": [
                        {
                            "system": "http://snomed.info/sct",
                            "code": "129007",
                            "display": "Homoiothermia"
                        }
                    ]
                },
                "onsetDateTime": "2007-12-14T00:00:00+00:00",
                "subject": {
                    "reference": "Patient/43d79100-1a10-44e5-a0fb-8c7ba02e9da5"
                }
            },
            "request": {
                "method": "PUT",
                "url": "Condition/fb6c0942-6381-4956-861b-12e11fcb82eb"
            }
        },
        {
            "fullUrl": "urn:uuid:0675d91f-d2d1-4250-a071-37332fc4226d",
            "resource": {
                "resourceType": "MedicationRequest",
                "id": "0675d91f-d2d1-4250-a071-37332fc4226d",
                "meta": {
                    "profile": [
                        "http://hl7.org/fhir/us/core/StructureDefinition/us-core-medicationrequest"
                    ]
                },
                "status": "active",
                "intent": "order",
                "medicationCodeableConcept": {
                    "coding": [
                        {
                            "system": "http://www.nlm.nih.gov/research/umls/rxnorm",
                            "code": "91990",
                            "display": "Betaxolol Ophthalmic Suspension [Betoptic S]"
                        }
                    ]
                },
                "authoredOn": "2019-06-24T00:00:00+00:00",
                "dosageInstruction": [
                    {
                        "text": "Takes 1-2 tablets once daily at bedtime as needed for restless legs"
                    }
                ],
                "subject": {
                    "reference": "Patient/43d79100-1a10-44e5-a0fb-8c7ba02e9da5"
                },
                "encounter": {
                    "reference": "Encounter/8d21f7e0-6d2e-41b3-b883-db5b84550806"
                },
                "requester": {
                    "reference": "Practitioner/0ce47899-a28e-4142-a401-a87351e9def6"
                }
            },
            "request": {
                "method": "PUT",
                "url": "MedicationRequest/0675d91f-d2d1-4250-a071-37332fc4226d"
            }
        },
        {
            "fullUrl": "urn:uuid:7860492f-87ed-4ed6-bb71-ffc5c0fbe964",
            "resource": {
                "resourceType": "Observation",
                "id": "7860492f-87ed-4ed6-bb71-ffc5c0fbe964",
                "meta": {
                    "profile": [
                        "http://hl7.org/fhir/us/core/StructureDefinition/pediatric-bmi-for-age"
                    ]
                },
                "status": "final",
                "code": {
                    "coding": [
                        {
                            "system": "http://loinc.org",
                            "code": "59576-9",
                            "display": "Body mass index (BMI) [Percentile] Per age and sex"
                        }
                    ]
                },
                "category": [
                    {
                        "coding": [
                            {
                                "system": "http://terminology.hl7.org/CodeSystem/observation-category",
                                "code": "laboratory",
                                "display": "Laboratory"
                            }
                        ]
                    }
                ],
                "effectiveDateTime": "1999-07-02T00:00:00+00:00",
                "valueQuantity": {
                    "value": 65.0,
                    "unit": "%",
                    "system": "http://unitsofmeasure.org",
                    "code": "%"
                },
                "subject": {
                    "reference": "Patient/43d79100-1a10-44e5-a0fb-8c7ba02e9da5"
                }
            },
            "request": {
                "method": "PUT",
                "url": "Observation/7860492f-87ed-4ed6-bb71-ffc5c0fbe964"
            }
        },
        {
            "fullUrl": "urn:uuid:3dbff37f-6704-475b-98ec-d4a69ecd43d4",
            "resource": {
                "resourceType": "Device",
                "id": "3dbff37f-6704-475b-98ec-d4a69ecd43d4",
                "meta": {
                    "profile": [
                        "http://hl7.org/fhir/us/core/StructureDefinition/us-core-implantable-device"
                    ]
                },
                "udiCarrier": {
                    "deviceIdentifier": "99863313444316",
                    "carrierAIDC": "MDE5OTg2MzMxMzQ0NDMxNjE3MjIwMTAxMTBNMzIwMjFBQzIyMQ==",
                    "carrierHRF": "(01)99863313444316(17)220101(10)M320(21)AC221"
                },
                "distinctIdentifier": "99863313444316",
                "manufactureDate": "1983-01-01T00:00:00+00:00",
                "expirationDate": "2022-01-01T00:00:00+00:00",
                "lotNumber": "M320",
                "serialNumber": "AC221",
                "type": {
                    "coding": [
                        {
                            "system": "http://snomed.info/sct",
                            "code": "994005",
                            "display": "Brush, device"
                        }
                    ]
                },
                "patient": {
                    "reference": "Patient/43d79100-1a10-44e5-a0fb-8c7ba02e9da5"
                }
            },
            "request": {
                "method": "PUT",
                "url": "Device/3dbff37f-6704-475b-98ec-d4a69ecd43d4"
            }
        },
        {
            "fullUrl": "urn:uuid:c8a08d31-329c-40e7-8e06-b0fb649b05d2",
            "resource": {
                "resourceType": "Observation",
                "id": "c8a08d31-329c-40e7-8e06-b0fb649b05d2",
                "meta": {
                    "profile": [
                        "http://hl7.org/fhir/StructureDefinition/vitalsigns"
                    ]
                },
                "status": "final",
                "category": [
                    {
                        "coding": [
                            {
                                "system": "http://terminology.hl7.org/CodeSystem/observation-category",
                                "code": "vital-signs",
                                "display": "Vital Signs"
                            }
                        ]
                    }
                ],
                "code": {
                    "coding": [
                        {
                            "system": "http://loinc.org",
                            "code": "29463-7",
                            "display": "Body weight"
                        }
                    ]
                },
                "effectiveDateTime": "1999-07-02T00:00:00+00:00",
                "valueQuantity": {
                    "value": 35.0,
                    "unit": "g",
                    "system": "http://unitsofmeasure.org",
                    "code": "g"
                },
                "subject": {
                    "reference": "Patient/43d79100-1a10-44e5-a0fb-8c7ba02e9da5"
                }
            },
            "request": {
                "method": "PUT",
                "url": "Observation/c8a08d31-329c-40e7-8e06-b0fb649b05d2"
            }
        }
    ]
}