{
    "resourceType": "Bundle",
    "id": "63b0d884-1d40-4a70-b1eb-47ae69fca39d",
    "meta": {
        "security": [
            {
                "system": "http://terminology.hl7.org/CodeSystem/v3-ActReason",
                "code": "HTEST",
                "display": "test health data"
            }
        ]
    },
    "type": "transaction",
    "entry": [
        {
            "fullUrl": "urn:uuid:97154119-0a45-4e6c-94bc-d12983bc86f6",
            "resource": {
                "resourceType": "Encounter",
                "id": "97154119-0a45-4e6c-94bc-d12983bc86f6",
                "meta": {
                    "profile": [
                        "http://hl7.org/fhir/us/core/StructureDefinition/us-core-encounter"
                    ],
                    "security": [
                        {
                            "system": "http://terminology.hl7.org/CodeSystem/v3-ActReason",
                            "code": "HTEST",
                            "display": "test health data"
                        }
                    ]
                },
                "identifier": [
                    {
                        "system": "urn:example:healthcare:system",
                        "value": "3456"
                    }
                ],
                "status": "finished",
                "class": {
                    "system": "http://terminology.hl7.org/CodeSystem/v3-ActCode",
                    "code": "IMP",
                    "display": "inpatient encounter"
                },
                "type": [
                    {
                        "coding": [
                            {
                                "system": "http://hl7.org/fhir/sid/icd-10",
                                "code": "O80",
                                "display": "Single spontaneous delivery"
                            }
                        ]
                    }
                ],
                "period": {
                    "start": "2019-05-06T11:01:23+00:00",
                    "end": "2019-05-06T16:06:37+00:00"
                },
                "hospitalization": {
                    "dischargeDisposition": {
                        "coding": [
                            {
                                "system": "http://terminology.hl7.org/CodeSystem/discharge-disposition",
                                "code": "home",
                                "display": "Home"
                            }
                        ]
                    }
                },
                "subject": {
                    "reference": "Patient/4f32e91c-c36e-41c6-a551-e2d3230086d2"
                }
            },
            "request": {
                "method": "PUT",
                "url": "Encounter/97154119-0a45-4e6c-94bc-d12983bc86f6"
            }
        },
        {
            "fullUrl": "urn:uuid:4f32e91c-c36e-41c6-a551-e2d3230086d2",
            "resource": {
                "resourceType": "Patient",
                "id": "4f32e91c-c36e-41c6-a551-e2d3230086d2",
                "meta": {
                    "profile": [
                        "http://hl7.org/fhir/us/core/StructureDefinition/us-core-patient"
                    ],
                    "security": [
                        {
                            "system": "http://terminology.hl7.org/CodeSystem/v3-ActReason",
                            "code": "HTEST",
                            "display": "test health data"
                        }
                    ]
                },
                "extension": [
                    {
                        "extension": [
                            {
                                "url": "ombCategory",
                                "valueCoding": {
                                    "system": "urn:oid:2.16.840.1.113883.6.238",
                                    "code": "2028-9",
                                    "display": "Asian"
                                }
                            },
                            {
                                "url": "text",
                                "valueString": "asian"
                            }
                        ],
                        "url": "http://hl7.org/fhir/us/core/StructureDefinition/us-core-race"
                    },
                    {
                        "extension": [
                            {
                                "url": "ombCategory",
                                "valueCoding": {
                                    "system": "urn:oid:2.16.840.1.113883.6.238",
                                    "code": "2186-5",
                                    "display": "Not Hispanic or Latino"
                                }
                            },
                            {
                                "url": "text",
                                "valueString": "Not Hispanic or Latino"
                            }
                        ],
                        "url": "http://hl7.org/fhir/us/core/StructureDefinition/us-core-ethnicity"
                    },
                    {
                        "url": "http://hl7.org/fhir/us/core/StructureDefinition/us-core-birthsex",
                        "valueCode": "M"
                    }
                ],
                "identifier": [
                    {
                        "value": "7890123",
                        "system": "http://hospital.smarthealthit.org"
                    },
                    {
                        "use": "usual",
                        "type": {
                            "coding": [
                                {
                                    "system": "http://terminology.hl7.org/CodeSystem/v2-0203",
                                    "code": "MR",
                                    "display": "Medical Record Number"
                                }
                            ],
                            "text": "Medical Record Number"
                        },
                        "system": "urn:mrn:http://hl7.org/fhir/sid/us-mrn",
                        "value": "68392077"
                    },
                    {
                        "use": "usual",
                        "type": {
                            "coding": [
                                {
                                    "system": "http://terminology.hl7.org/CodeSystem/v2-0203",
                                    "code": "SS"
                                }
                            ],
                            "text": "Social Security Number"
                        },
                        "system": "http://hl7.org/fhir/sid/us-ssn",
                        "value": "456-78-9012"
                    }
                ],
                "name": [
                    {
                        "given": [
                            "Ethan"
                        ],
                        "family": "Crosswell",
                        "use": "usual"
                    }
                ],
                "telecom": [
                    {
                        "system": "phone",
                        "value": "777-777-7777",
                        "use": "home"
                    }
                ],
                "gender": "male",
                "birthDate": "2019-05-06",
                "address": [
                    {
                        "line": [
                            "42 Elmwood Drive"
                        ],
                        "city": "Boulder",
                        "district": "Boulder",
                        "postalCode": "90302",
                        "state": "CO",
                        "country": "US"
                    }
                ],
                "communication": [
                    {
                        "language": {
                            "coding": [
                                {
                                    "system": "urn:ietf:bcp:47",
                                    "code": "en",
                                    "display": "English"
                                }
                            ]
                        }
                    }
                ]
            },
            "request": {
                "method": "PUT",
                "url": "Patient/4f32e91c-c36e-41c6-a551-e2d3230086d2"
            }
        },
        {
            "fullUrl": "urn:uuid:161e0134-57f9-431d-ba6b-aa2b76710994",
            "resource": {
                "resourceType": "RelatedPerson",
                "id": "161e0134-57f9-431d-ba6b-aa2b76710994",
                "identifier": [
                    {
                        "system": "urn:example:healthcare:system",
                        "value": "4567"
                    }
                ],
                "relationship": [
                    {
                        "coding": [
                            {
                                "system": "http://terminology.hl7.org/CodeSystem/v3-RoleCode",
                                "code": "MTH",
                                "display": "Mother"
                            }
                        ]
                    }
                ],
                "name": [
                    {
                        "given": [
                            "Lillian"
                        ],
                        "family": "Crosswell",
                        "use": "usual"
                    }
                ],
                "telecom": [
                    {
                        "system": "phone",
                        "value": "888-888-8888",
                        "use": "home"
                    }
                ],
                "gender": "female",
                "patient": {
                    "reference": "Patient/4f32e91c-c36e-41c6-a551-e2d3230086d2"
                }
            },
            "request": {
                "method": "PUT",
                "url": "RelatedPerson/161e0134-57f9-431d-ba6b-aa2b76710994"
            }
        },
        {
            "fullUrl": "urn:uuid:0b926407-d583-4af6-bb4d-4aa852dbffc2",
            "resource": {
                "resourceType": "Procedure",
                "id": "0b926407-d583-4af6-bb4d-4aa852dbffc2",
                "meta": {
                    "profile": [
                        "http://hl7.org/fhir/us/core/StructureDefinition/us-core-procedure"
                    ],
                    "security": [
                        {
                            "system": "http://terminology.hl7.org/CodeSystem/v3-ActReason",
                            "code": "HTEST",
                            "display": "test health data"
                        }
                    ]
                },
                "status": "completed",
                "code": {
                    "coding": [
                        {
                            "system": "http://www.ama-assn.org/go/cpt",
                            "code": "92558",
                            "display": "Automated evoked otoacoustic emissions screening"
                        }
                    ]
                },
                "performedDateTime": "2019-05-07T00:00:00+00:00",
                "subject": {
                    "reference": "Patient/4f32e91c-c36e-41c6-a551-e2d3230086d2"
                },
                "encounter": {
                    "reference": "Encounter/97154119-0a45-4e6c-94bc-d12983bc86f6"
                }
            },
            "request": {
                "method": "PUT",
                "url": "Procedure/0b926407-d583-4af6-bb4d-4aa852dbffc2"
            }
        },
        {
            "fullUrl": "urn:uuid:6e5b82fc-97a0-4b8f-91fb-ac1d1e332a24",
            "resource": {
                "resourceType": "Procedure",
                "id": "6e5b82fc-97a0-4b8f-91fb-ac1d1e332a24",
                "meta": {
                    "profile": [
                        "http://hl7.org/fhir/us/core/StructureDefinition/us-core-procedure"
                    ],
                    "security": [
                        {
                            "system": "http://terminology.hl7.org/CodeSystem/v3-ActReason",
                            "code": "HTEST",
                            "display": "test health data"
                        }
                    ]
                },
                "status": "completed",
                "code": {
                    "coding": [
                        {
                            "system": "http://www.ama-assn.org/go/cpt",
                            "code": "87496",
                            "display": "Cytomegalovirus detection by amplified nucleic acid probe technique"
                        }
                    ]
                },
                "performedDateTime": "2019-05-08T00:00:00+00:00",
                "subject": {
                    "reference": "Patient/4f32e91c-c36e-41c6-a551-e2d3230086d2"
                },
                "encounter": {
                    "reference": "Encounter/97154119-0a45-4e6c-94bc-d12983bc86f6"
                }
            },
            "request": {
                "method": "PUT",
                "url": "Procedure/6e5b82fc-97a0-4b8f-91fb-ac1d1e332a24"
            }
        },
        {
            "fullUrl": "urn:uuid:4f0c2dee-7442-433a-b510-2b8b8ee5dfc7",
            "resource": {
                "resourceType": "Procedure",
                "id": "4f0c2dee-7442-433a-b510-2b8b8ee5dfc7",
                "meta": {
                    "profile": [
                        "http://hl7.org/fhir/us/core/StructureDefinition/us-core-procedure"
                    ],
                    "security": [
                        {
                            "system": "http://terminology.hl7.org/CodeSystem/v3-ActReason",
                            "code": "HTEST",
                            "display": "test health data"
                        }
                    ]
                },
                "status": "completed",
                "code": {
                    "coding": [
                        {
                            "system": "http://www.ama-assn.org/go/cpt",
                            "code": "70551",
                            "display": "MRI scan of brain without contrast"
                        }
                    ]
                },
                "performedDateTime": "2018-04-15T00:00:00+00:00",
                "subject": {
                    "reference": "Patient/4f32e91c-c36e-41c6-a551-e2d3230086d2"
                },
                "encounter": {
                    "reference": "Encounter/97154119-0a45-4e6c-94bc-d12983bc86f6"
                }
            },
            "request": {
                "method": "PUT",
                "url": "Procedure/4f0c2dee-7442-433a-b510-2b8b8ee5dfc7"
            }
        },
        {
            "fullUrl": "urn:uuid:205d187d-3737-45f5-8e48-9e4915103196",
            "resource": {
                "resourceType": "Condition",
                "id": "205d187d-3737-45f5-8e48-9e4915103196",
                "meta": {
                    "profile": [
                        "http://hl7.org/fhir/us/core/StructureDefinition/us-core-condition"
                    ],
                    "security": [
                        {
                            "system": "http://terminology.hl7.org/CodeSystem/v3-ActReason",
                            "code": "HTEST",
                            "display": "test health data"
                        }
                    ]
                },
                "clinicalStatus": {
                    "coding": [
                        {
                            "system": "http://terminology.hl7.org/CodeSystem/condition-clinical",
                            "code": "active",
                            "display": "Active"
                        }
                    ]
                },
                "verificationStatus": {
                    "coding": [
                        {
                            "system": "http://terminology.hl7.org/CodeSystem/condition-ver-status",
                            "code": "confirmed",
                            "display": "Confirmed"
                        }
                    ]
                },
                "category": [
                    {
                        "coding": [
                            {
                                "system": "http://hl7.org/fhir/us/core/CodeSystem/condition-category",
                                "code": "health-concern",
                                "display": "Health Concern"
                            }
                        ]
                    }
                ],
                "code": {
                    "coding": [
                        {
                            "system": "http://hl7.org/fhir/sid/icd-10",
                            "code": "E03.1",
                            "display": "congenital hypothyroidism without goitre"
                        }
                    ]
                },
                "onsetDateTime": "2019-05-06T00:00:00+00:00",
                "subject": {
                    "reference": "Patient/4f32e91c-c36e-41c6-a551-e2d3230086d2"
                }
            },
            "request": {
                "method": "PUT",
                "url": "Condition/205d187d-3737-45f5-8e48-9e4915103196"
            }
        },
        {
            "fullUrl": "urn:uuid:259ff36c-ea88-478c-85d6-aa22e829d051",
            "resource": {
                "resourceType": "MedicationRequest",
                "id": "259ff36c-ea88-478c-85d6-aa22e829d051",
                "meta": {
                    "profile": [
                        "http://hl7.org/fhir/us/core/StructureDefinition/us-core-medicationrequest"
                    ],
                    "security": [
                        {
                            "system": "http://terminology.hl7.org/CodeSystem/v3-ActReason",
                            "code": "HTEST",
                            "display": "test health data"
                        }
                    ]
                },
                "status": "active",
                "intent": "order",
                "medicationCodeableConcept": {
                    "coding": [
                        {
                            "system": "http://www.nlm.nih.gov/research/umls/rxnorm",
                            "code": "275891",
                            "display": "valganciclovir"
                        }
                    ]
                },
                "authoredOn": "2019-05-06T00:00:00+00:00",
                "dosageInstruction": [
                    {
                        "text": "0.2 mg/kg/dose, given twice daily"
                    }
                ],
                "subject": {
                    "reference": "Patient/4f32e91c-c36e-41c6-a551-e2d3230086d2"
                }
            },
            "request": {
                "method": "PUT",
                "url": "MedicationRequest/259ff36c-ea88-478c-85d6-aa22e829d051"
            }
        }
    ]
}