{
    "resourceType": "Bundle",
    "id": "44edd9ed-6e29-41d4-9b71-71309e74461a",
    "meta": {
        "security": [
            {
                "system": "http://terminology.hl7.org/CodeSystem/v3-ActReason",
                "code": "HTEST",
                "display": "test health data"
            }
        ]
    },
    "type": "transaction",
    "entry": [
        {
            "fullUrl": "urn:uuid:461d8935-13fb-4e0d-b498-02739eb05807",
            "resource": {
                "resourceType": "Encounter",
                "id": "461d8935-13fb-4e0d-b498-02739eb05807",
                "meta": {
                    "profile": [
                        "http://hl7.org/fhir/us/core/StructureDefinition/us-core-encounter"
                    ],
                    "security": [
                        {
                            "system": "http://terminology.hl7.org/CodeSystem/v3-ActReason",
                            "code": "HTEST",
                            "display": "test health data"
                        }
                    ]
                },
                "identifier": [
                    {
                        "system": "urn:example:healthcare:system",
                        "value": "4567"
                    }
                ],
                "status": "finished",
                "class": {
                    "system": "http://terminology.hl7.org/CodeSystem/v3-ActCode",
                    "code": "IMP",
                    "display": "inpatient encounter"
                },
                "type": [
                    {
                        "coding": [
                            {
                                "system": "http://hl7.org/fhir/sid/icd-10",
                                "code": "O80",
                                "display": "full-term uncomplicated delivery"
                            }
                        ]
                    }
                ],
                "period": {
                    "start": "2020-06-10T11:01:23+00:00",
                    "end": "2020-06-11T16:06:37+00:00"
                },
                "hospitalization": {
                    "dischargeDisposition": {
                        "coding": [
                            {
                                "system": "http://terminology.hl7.org/CodeSystem/discharge-disposition",
                                "code": "home",
                                "display": "Home"
                            }
                        ]
                    }
                },
                "subject": {
                    "reference": "Patient/9139a350-c5d9-4a7c-8560-659b7f14681e"
                }
            },
            "request": {
                "method": "PUT",
                "url": "Encounter/461d8935-13fb-4e0d-b498-02739eb05807"
            }
        },
        {
            "fullUrl": "urn:uuid:9139a350-c5d9-4a7c-8560-659b7f14681e",
            "resource": {
                "resourceType": "Patient",
                "id": "9139a350-c5d9-4a7c-8560-659b7f14681e",
                "meta": {
                    "profile": [
                        "http://hl7.org/fhir/us/core/StructureDefinition/us-core-patient"
                    ],
                    "security": [
                        {
                            "system": "http://terminology.hl7.org/CodeSystem/v3-ActReason",
                            "code": "HTEST",
                            "display": "test health data"
                        }
                    ]
                },
                "extension": [
                    {
                        "extension": [
                            {
                                "url": "ombCategory",
                                "valueCoding": {
                                    "system": "urn:oid:2.16.840.1.113883.6.238",
                                    "code": "2028-9",
                                    "display": "Asian"
                                }
                            },
                            {
                                "url": "text",
                                "valueString": "asian"
                            }
                        ],
                        "url": "http://hl7.org/fhir/us/core/StructureDefinition/us-core-race"
                    },
                    {
                        "extension": [
                            {
                                "url": "ombCategory",
                                "valueCoding": {
                                    "system": "urn:oid:2.16.840.1.113883.6.238",
                                    "code": "2186-5",
                                    "display": "Not Hispanic or Latino"
                                }
                            },
                            {
                                "url": "text",
                                "valueString": "Not Hispanic or Latino"
                            }
                        ],
                        "url": "http://hl7.org/fhir/us/core/StructureDefinition/us-core-ethnicity"
                    },
                    {
                        "url": "http://hl7.org/fhir/us/core/StructureDefinition/us-core-birthsex",
                        "valueCode": "M"
                    }
                ],
                "identifier": [
                    {
                        "value": "890123",
                        "system": "http://hospital.smarthealthit.org"
                    },
                    {
                        "use": "usual",
                        "type": {
                            "coding": [
                                {
                                    "system": "http://terminology.hl7.org/CodeSystem/v2-0203",
                                    "code": "MR",
                                    "display": "Medical Record Number"
                                }
                            ],
                            "text": "Medical Record Number"
                        },
                        "system": "urn:mrn:http://hl7.org/fhir/sid/us-mrn",
                        "value": "6489003"
                    },
                    {
                        "use": "usual",
                        "type": {
                            "coding": [
                                {
                                    "system": "http://terminology.hl7.org/CodeSystem/v2-0203",
                                    "code": "SS"
                                }
                            ],
                            "text": "Social Security Number"
                        },
                        "system": "http://hl7.org/fhir/sid/us-ssn",
                        "value": "567-89-0123"
                    }
                ],
                "name": [
                    {
                        "given": [
                            "Nathanial"
                        ],
                        "family": "Harper",
                        "use": "usual"
                    }
                ],
                "telecom": [
                    {
                        "system": "phone",
                        "value": "888-888-8888",
                        "use": "home"
                    }
                ],
                "gender": "male",
                "birthDate": "2020-06-10",
                "address": [
                    {
                        "line": [
                            "378 Willow Lane"
                        ],
                        "city": "Charlottesville",
                        "district": "Albermerie",
                        "postalCode": "22901",
                        "state": "VA",
                        "country": "US"
                    }
                ],
                "communication": [
                    {
                        "language": {
                            "coding": [
                                {
                                    "system": "urn:ietf:bcp:47",
                                    "code": "en",
                                    "display": "English"
                                }
                            ]
                        }
                    }
                ]
            },
            "request": {
                "method": "PUT",
                "url": "Patient/9139a350-c5d9-4a7c-8560-659b7f14681e"
            }
        },
        {
            "fullUrl": "urn:uuid:0a7e7e40-0c6d-4a77-9b8f-f3bb9fbee900",
            "resource": {
                "resourceType": "RelatedPerson",
                "id": "0a7e7e40-0c6d-4a77-9b8f-f3bb9fbee900",
                "identifier": [
                    {
                        "system": "urn:example:healthcare:system",
                        "value": "5678"
                    }
                ],
                "relationship": [
                    {
                        "coding": [
                            {
                                "system": "http://terminology.hl7.org/CodeSystem/v3-RoleCode",
                                "code": "MTH",
                                "display": "Mother"
                            }
                        ]
                    }
                ],
                "name": [
                    {
                        "given": [
                            "Margaret"
                        ],
                        "family": "Harper",
                        "use": "usual"
                    }
                ],
                "telecom": [
                    {
                        "system": "phone",
                        "value": "999-999-9999",
                        "use": "home"
                    }
                ],
                "gender": "female",
                "patient": {
                    "reference": "Patient/9139a350-c5d9-4a7c-8560-659b7f14681e"
                }
            },
            "request": {
                "method": "PUT",
                "url": "RelatedPerson/0a7e7e40-0c6d-4a77-9b8f-f3bb9fbee900"
            }
        },
        {
            "fullUrl": "urn:uuid:53b0db2d-138c-4f92-84cf-0c2fa63f6fe1",
            "resource": {
                "resourceType": "Condition",
                "id": "53b0db2d-138c-4f92-84cf-0c2fa63f6fe1",
                "meta": {
                    "profile": [
                        "http://hl7.org/fhir/us/core/StructureDefinition/us-core-condition"
                    ],
                    "security": [
                        {
                            "system": "http://terminology.hl7.org/CodeSystem/v3-ActReason",
                            "code": "HTEST",
                            "display": "test health data"
                        }
                    ]
                },
                "clinicalStatus": {
                    "coding": [
                        {
                            "system": "http://terminology.hl7.org/CodeSystem/condition-clinical",
                            "code": "active",
                            "display": "Active"
                        }
                    ]
                },
                "verificationStatus": {
                    "coding": [
                        {
                            "system": "http://terminology.hl7.org/CodeSystem/condition-ver-status",
                            "code": "confirmed",
                            "display": "Confirmed"
                        }
                    ]
                },
                "category": [
                    {
                        "coding": [
                            {
                                "system": "http://hl7.org/fhir/us/core/CodeSystem/condition-category",
                                "code": "health-concern",
                                "display": "Health Concern"
                            }
                        ]
                    }
                ],
                "code": {
                    "coding": [
                        {
                            "system": "http://hl7.org/fhir/sid/icd-10",
                            "code": "Q05.9",
                            "display": "Spina bifida"
                        }
                    ]
                },
                "onsetDateTime": "2020-06-10T00:00:00+00:00",
                "subject": {
                    "reference": "Patient/9139a350-c5d9-4a7c-8560-659b7f14681e"
                }
            },
            "request": {
                "method": "PUT",
                "url": "Condition/53b0db2d-138c-4f92-84cf-0c2fa63f6fe1"
            }
        },
        {
            "fullUrl": "urn:uuid:88243aaf-1280-4155-b434-e761da06fd43",
            "resource": {
                "resourceType": "Condition",
                "id": "88243aaf-1280-4155-b434-e761da06fd43",
                "meta": {
                    "profile": [
                        "http://hl7.org/fhir/us/core/StructureDefinition/us-core-condition"
                    ],
                    "security": [
                        {
                            "system": "http://terminology.hl7.org/CodeSystem/v3-ActReason",
                            "code": "HTEST",
                            "display": "test health data"
                        }
                    ]
                },
                "clinicalStatus": {
                    "coding": [
                        {
                            "system": "http://terminology.hl7.org/CodeSystem/condition-clinical",
                            "code": "active",
                            "display": "Active"
                        }
                    ]
                },
                "verificationStatus": {
                    "coding": [
                        {
                            "system": "http://terminology.hl7.org/CodeSystem/condition-ver-status",
                            "code": "confirmed",
                            "display": "Confirmed"
                        }
                    ]
                },
                "category": [
                    {
                        "coding": [
                            {
                                "system": "http://hl7.org/fhir/us/core/CodeSystem/condition-category",
                                "code": "health-concern",
                                "display": "Health Concern"
                            }
                        ]
                    }
                ],
                "code": {
                    "coding": [
                        {
                            "system": "http://hl7.org/fhir/sid/icd-10",
                            "code": "N31.9",
                            "display": "Neuromuscular dysfunction of bladder"
                        }
                    ]
                },
                "onsetDateTime": "2020-06-10T00:00:00+00:00",
                "subject": {
                    "reference": "Patient/9139a350-c5d9-4a7c-8560-659b7f14681e"
                }
            },
            "request": {
                "method": "PUT",
                "url": "Condition/88243aaf-1280-4155-b434-e761da06fd43"
            }
        },
        {
            "fullUrl": "urn:uuid:dc954bc4-d25e-43d5-b586-bec23d7433e6",
            "resource": {
                "resourceType": "Condition",
                "id": "dc954bc4-d25e-43d5-b586-bec23d7433e6",
                "meta": {
                    "profile": [
                        "http://hl7.org/fhir/us/core/StructureDefinition/us-core-condition"
                    ],
                    "security": [
                        {
                            "system": "http://terminology.hl7.org/CodeSystem/v3-ActReason",
                            "code": "HTEST",
                            "display": "test health data"
                        }
                    ]
                },
                "clinicalStatus": {
                    "coding": [
                        {
                            "system": "http://terminology.hl7.org/CodeSystem/condition-clinical",
                            "code": "active",
                            "display": "Active"
                        }
                    ]
                },
                "verificationStatus": {
                    "coding": [
                        {
                            "system": "http://terminology.hl7.org/CodeSystem/condition-ver-status",
                            "code": "confirmed",
                            "display": "Confirmed"
                        }
                    ]
                },
                "category": [
                    {
                        "coding": [
                            {
                                "system": "http://hl7.org/fhir/us/core/CodeSystem/condition-category",
                                "code": "health-concern",
                                "display": "Health Concern"
                            }
                        ]
                    }
                ],
                "code": {
                    "coding": [
                        {
                            "system": "http://hl7.org/fhir/sid/icd-10",
                            "code": "G91. 9",
                            "display": "Hydrocephalus, unspecified"
                        }
                    ]
                },
                "onsetDateTime": "2020-06-10T00:00:00+00:00",
                "subject": {
                    "reference": "Patient/9139a350-c5d9-4a7c-8560-659b7f14681e"
                }
            },
            "request": {
                "method": "PUT",
                "url": "Condition/dc954bc4-d25e-43d5-b586-bec23d7433e6"
            }
        },
        {
            "fullUrl": "urn:uuid:3fd99396-1079-496c-8ca9-7733afa30dee",
            "resource": {
                "resourceType": "Procedure",
                "id": "3fd99396-1079-496c-8ca9-7733afa30dee",
                "meta": {
                    "profile": [
                        "http://hl7.org/fhir/us/core/StructureDefinition/us-core-procedure"
                    ],
                    "security": [
                        {
                            "system": "http://terminology.hl7.org/CodeSystem/v3-ActReason",
                            "code": "HTEST",
                            "display": "test health data"
                        }
                    ]
                },
                "status": "completed",
                "code": {
                    "coding": [
                        {
                            "system": "http://snomed.info/sct",
                            "code": "63706",
                            "display": "Repair of myelomeningocele"
                        }
                    ]
                },
                "performedDateTime": "2020-06-12T00:00:00+00:00",
                "subject": {
                    "reference": "Patient/9139a350-c5d9-4a7c-8560-659b7f14681e"
                },
                "encounter": {
                    "reference": "Encounter/461d8935-13fb-4e0d-b498-02739eb05807"
                }
            },
            "request": {
                "method": "PUT",
                "url": "Procedure/3fd99396-1079-496c-8ca9-7733afa30dee"
            }
        },
        {
            "fullUrl": "urn:uuid:2b50bf52-9696-480c-936f-ea31dc1a67b3",
            "resource": {
                "resourceType": "Procedure",
                "id": "2b50bf52-9696-480c-936f-ea31dc1a67b3",
                "meta": {
                    "profile": [
                        "http://hl7.org/fhir/us/core/StructureDefinition/us-core-procedure"
                    ],
                    "security": [
                        {
                            "system": "http://terminology.hl7.org/CodeSystem/v3-ActReason",
                            "code": "HTEST",
                            "display": "test health data"
                        }
                    ]
                },
                "status": "completed",
                "code": {
                    "coding": [
                        {
                            "system": "http://snomed.info/sct",
                            "code": "62223",
                            "display": "Creation of shunt"
                        }
                    ]
                },
                "performedDateTime": "2020-06-12T00:00:00+00:00",
                "subject": {
                    "reference": "Patient/9139a350-c5d9-4a7c-8560-659b7f14681e"
                },
                "encounter": {
                    "reference": "Encounter/461d8935-13fb-4e0d-b498-02739eb05807"
                }
            },
            "request": {
                "method": "PUT",
                "url": "Procedure/2b50bf52-9696-480c-936f-ea31dc1a67b3"
            }
        },
        {
            "fullUrl": "urn:uuid:73f412cf-38fb-4ce8-a7d0-acfa3b3ac4fd",
            "resource": {
                "resourceType": "Encounter",
                "id": "73f412cf-38fb-4ce8-a7d0-acfa3b3ac4fd",
                "meta": {
                    "profile": [
                        "http://hl7.org/fhir/us/core/StructureDefinition/us-core-encounter"
                    ],
                    "security": [
                        {
                            "system": "http://terminology.hl7.org/CodeSystem/v3-ActReason",
                            "code": "HTEST",
                            "display": "test health data"
                        }
                    ]
                },
                "identifier": [
                    {
                        "system": "urn:example:healthcare:system",
                        "value": "7654"
                    }
                ],
                "status": "finished",
                "class": {
                    "system": "http://terminology.hl7.org/CodeSystem/v3-ActCode",
                    "code": "IMP",
                    "display": "inpatient encounter"
                },
                "type": [
                    {
                        "coding": [
                            {
                                "system": "http://hl7.org/fhir/sid/icd-10",
                                "code": "Z09",
                                "display": "Follow-up examination after treatment for conditions other than malignant neoplasms"
                            }
                        ]
                    }
                ],
                "period": {
                    "start": "2021-01-15T11:01:23+00:00",
                    "end": "2021-01-15T16:06:37+00:00"
                },
                "hospitalization": {
                    "dischargeDisposition": {
                        "coding": [
                            {
                                "system": "http://terminology.hl7.org/CodeSystem/discharge-disposition",
                                "code": "home",
                                "display": "Home"
                            }
                        ]
                    }
                }
            },
            "request": {
                "method": "PUT",
                "url": "Encounter/73f412cf-38fb-4ce8-a7d0-acfa3b3ac4fd"
            }
        },
        {
            "fullUrl": "urn:uuid:e8779a66-c132-4415-8933-ad6e58d89f92",
            "resource": {
                "resourceType": "Procedure",
                "id": "e8779a66-c132-4415-8933-ad6e58d89f92",
                "meta": {
                    "profile": [
                        "http://hl7.org/fhir/us/core/StructureDefinition/us-core-procedure"
                    ],
                    "security": [
                        {
                            "system": "http://terminology.hl7.org/CodeSystem/v3-ActReason",
                            "code": "HTEST",
                            "display": "test health data"
                        }
                    ]
                },
                "status": "completed",
                "code": {
                    "coding": [
                        {
                            "system": "http://snomed.info/sct",
                            "code": "51725",
                            "display": "Urodynamic Procedures on the Bladder"
                        }
                    ]
                },
                "performedDateTime": "2021-01-15T00:00:00+00:00",
                "subject": {
                    "reference": "Patient/9139a350-c5d9-4a7c-8560-659b7f14681e"
                },
                "encounter": {
                    "reference": "Encounter/73f412cf-38fb-4ce8-a7d0-acfa3b3ac4fd"
                }
            },
            "request": {
                "method": "PUT",
                "url": "Procedure/e8779a66-c132-4415-8933-ad6e58d89f92"
            }
        },
        {
            "fullUrl": "urn:uuid:a5545da9-6355-498f-8cdc-8d8a5eed0118",
            "resource": {
                "resourceType": "Procedure",
                "id": "a5545da9-6355-498f-8cdc-8d8a5eed0118",
                "meta": {
                    "profile": [
                        "http://hl7.org/fhir/us/core/StructureDefinition/us-core-procedure"
                    ],
                    "security": [
                        {
                            "system": "http://terminology.hl7.org/CodeSystem/v3-ActReason",
                            "code": "HTEST",
                            "display": "test health data"
                        }
                    ]
                },
                "status": "completed",
                "code": {
                    "coding": [
                        {
                            "system": "http://snomed.info/sct",
                            "code": "72156",
                            "display": "Magnetic resonance (eg, proton) imaging, spinal canal and contents"
                        }
                    ]
                },
                "performedDateTime": "2021-01-15T00:00:00+00:00",
                "subject": {
                    "reference": "Patient/9139a350-c5d9-4a7c-8560-659b7f14681e"
                },
                "encounter": {
                    "reference": "Encounter/73f412cf-38fb-4ce8-a7d0-acfa3b3ac4fd"
                }
            },
            "request": {
                "method": "PUT",
                "url": "Procedure/a5545da9-6355-498f-8cdc-8d8a5eed0118"
            }
        },
        {
            "fullUrl": "urn:uuid:22dcb2d5-63bd-4ec0-a24c-13b752199d82",
            "resource": {
                "resourceType": "Procedure",
                "id": "22dcb2d5-63bd-4ec0-a24c-13b752199d82",
                "meta": {
                    "profile": [
                        "http://hl7.org/fhir/us/core/StructureDefinition/us-core-procedure"
                    ],
                    "security": [
                        {
                            "system": "http://terminology.hl7.org/CodeSystem/v3-ActReason",
                            "code": "HTEST",
                            "display": "test health data"
                        }
                    ]
                },
                "status": "completed",
                "code": {
                    "coding": [
                        {
                            "system": "http://snomed.info/sct",
                            "code": "96002",
                            "display": "Motion Analysis Procedures"
                        }
                    ]
                },
                "performedDateTime": "2021-01-15T00:00:00+00:00",
                "subject": {
                    "reference": "Patient/9139a350-c5d9-4a7c-8560-659b7f14681e"
                },
                "encounter": {
                    "reference": "Encounter/73f412cf-38fb-4ce8-a7d0-acfa3b3ac4fd"
                }
            },
            "request": {
                "method": "PUT",
                "url": "Procedure/22dcb2d5-63bd-4ec0-a24c-13b752199d82"
            }
        },
        {
            "fullUrl": "urn:uuid:9891e8a3-98b5-4b70-984b-2b6c8fc48e1b",
            "resource": {
                "resourceType": "Observation",
                "id": "9891e8a3-98b5-4b70-984b-2b6c8fc48e1b",
                "meta": {
                    "profile": [
                        "http://hl7.org/fhir/us/core/StructureDefinition/us-core-observation-lab"
                    ],
                    "security": [
                        {
                            "system": "http://terminology.hl7.org/CodeSystem/v3-ActReason",
                            "code": "HTEST",
                            "display": "test health data"
                        }
                    ]
                },
                "status": "final",
                "code": {
                    "coding": [
                        {
                            "system": "http://loinc.org",
                            "code": "1834-1",
                            "display": "Alpha-1-Fetoprotein [Mass/volume] in Serum or Plasma"
                        }
                    ]
                },
                "category": [
                    {
                        "coding": [
                            {
                                "system": "http://terminology.hl7.org/CodeSystem/observation-category",
                                "code": "laboratory",
                                "display": "Laboratory"
                            }
                        ]
                    }
                ],
                "effectiveDateTime": "2021-01-15T11:01:23+00:00",
                "valueQuantity": {
                    "value": 2.5,
                    "unit": "{M.o.M}",
                    "system": "http://unitsofmeasure.org",
                    "code": "{M.o.M}"
                },
                "subject": {
                    "reference": "Patient/9139a350-c5d9-4a7c-8560-659b7f14681e"
                }
            },
            "request": {
                "method": "PUT",
                "url": "Observation/9891e8a3-98b5-4b70-984b-2b6c8fc48e1b"
            }
        },
        {
            "fullUrl": "urn:uuid:b773f449-580e-40d3-a1a5-b6680cbfcde3",
            "resource": {
                "resourceType": "Observation",
                "id": "b773f449-580e-40d3-a1a5-b6680cbfcde3",
                "meta": {
                    "profile": [
                        "http://hl7.org/fhir/us/core/StructureDefinition/head-occipital-frontal-circumference-percentile"
                    ],
                    "security": [
                        {
                            "system": "http://terminology.hl7.org/CodeSystem/v3-ActReason",
                            "code": "HTEST",
                            "display": "test health data"
                        }
                    ]
                },
                "status": "final",
                "category": [
                    {
                        "coding": [
                            {
                                "system": "http://terminology.hl7.org/CodeSystem/observation-category",
                                "code": "vital-signs",
                                "display": "Vital Signs"
                            }
                        ]
                    }
                ],
                "code": {
                    "coding": [
                        {
                            "system": "http://loinc.org",
                            "code": "8287-5",
                            "display": "Head Occipital-frontal circumference by Tape measure"
                        }
                    ]
                },
                "effectiveDateTime": "2021-01-15T11:01:23+00:00",
                "valueQuantity": {
                    "value": 54.4,
                    "unit": "cm",
                    "system": "http://unitsofmeasure.org",
                    "code": "cm"
                },
                "subject": {
                    "reference": "Patient/9139a350-c5d9-4a7c-8560-659b7f14681e"
                }
            },
            "request": {
                "method": "PUT",
                "url": "Observation/b773f449-580e-40d3-a1a5-b6680cbfcde3"
            }
        },
        {
            "fullUrl": "urn:uuid:9dcfede9-19d3-4d0b-8e36-c3b8a45ae8e0",
            "resource": {
                "resourceType": "DiagnosticReport",
                "id": "9dcfede9-19d3-4d0b-8e36-c3b8a45ae8e0",
                "meta": {
                    "profile": [
                        "http://hl7.org/fhir/us/core/StructureDefinition/us-core-diagnosticreport-lab"
                    ],
                    "security": [
                        {
                            "system": "http://terminology.hl7.org/CodeSystem/v3-ActReason",
                            "code": "HTEST",
                            "display": "test health data"
                        }
                    ]
                },
                "status": "final",
                "category": [
                    {
                        "coding": [
                            {
                                "system": "http://terminology.hl7.org/CodeSystem/v2-0074",
                                "code": "LAB",
                                "display": "Laboratory"
                            }
                        ]
                    }
                ],
                "code": {
                    "coding": [
                        {
                            "system": "http://loinc.org",
                            "code": "24636-3",
                            "display": "Portable XR Chest AP left lateral-decubitus"
                        }
                    ]
                },
                "effectiveDateTime": "2021-01-15T11:01:23+00:00",
                "issued": "2021-01-15T11:01:23+00:00",
                "subject": {
                    "reference": "Patient/9139a350-c5d9-4a7c-8560-659b7f14681e"
                }
            },
            "request": {
                "method": "PUT",
                "url": "DiagnosticReport/9dcfede9-19d3-4d0b-8e36-c3b8a45ae8e0"
            }
        },
        {
            "fullUrl": "urn:uuid:2732a768-ef37-4b46-8acf-097e4f644b15",
            "resource": {
                "resourceType": "Observation",
                "id": "2732a768-ef37-4b46-8acf-097e4f644b15",
                "meta": {
                    "profile": [
                        "http://hl7.org/fhir/us/core/StructureDefinition/us-core-observation-lab"
                    ],
                    "security": [
                        {
                            "system": "http://terminology.hl7.org/CodeSystem/v3-ActReason",
                            "code": "HTEST",
                            "display": "test health data"
                        }
                    ]
                },
                "status": "final",
                "code": {
                    "coding": [
                        {
                            "system": "http://loinc.org",
                            "code": "9197-5",
                            "display": "Urine output --post void"
                        }
                    ]
                },
                "category": [
                    {
                        "coding": [
                            {
                                "system": "http://terminology.hl7.org/CodeSystem/observation-category",
                                "code": "laboratory",
                                "display": "Laboratory"
                            }
                        ]
                    }
                ],
                "effectiveDateTime": "2021-01-15T11:01:23+00:00",
                "valueQuantity": {
                    "value": 22.0,
                    "unit": "mL",
                    "system": "http://unitsofmeasure.org",
                    "code": "mL"
                },
                "subject": {
                    "reference": "Patient/9139a350-c5d9-4a7c-8560-659b7f14681e"
                }
            },
            "request": {
                "method": "PUT",
                "url": "Observation/2732a768-ef37-4b46-8acf-097e4f644b15"
            }
        },
        {
            "fullUrl": "urn:uuid:0cba710a-220f-4015-8010-41d3deb6bddf",
            "resource": {
                "resourceType": "Observation",
                "id": "0cba710a-220f-4015-8010-41d3deb6bddf",
                "meta": {
                    "profile": [
                        "http://hl7.org/fhir/us/core/StructureDefinition/us-core-observation-lab"
                    ],
                    "security": [
                        {
                            "system": "http://terminology.hl7.org/CodeSystem/v3-ActReason",
                            "code": "HTEST",
                            "display": "test health data"
                        }
                    ]
                },
                "status": "final",
                "code": {
                    "coding": [
                        {
                            "system": "http://loinc.org",
                            "code": "2160-0",
                            "display": "Creatinine [Mass/volume] in Serum or Plasma"
                        }
                    ]
                },
                "category": [
                    {
                        "coding": [
                            {
                                "system": "http://terminology.hl7.org/CodeSystem/observation-category",
                                "code": "laboratory",
                                "display": "Laboratory"
                            }
                        ]
                    }
                ],
                "effectiveDateTime": "2021-01-15T11:01:23+00:00",
                "valueQuantity": {
                    "value": 0.4,
                    "unit": "mg/dL",
                    "system": "http://unitsofmeasure.org",
                    "code": "mg/dL"
                },
                "subject": {
                    "reference": "Patient/9139a350-c5d9-4a7c-8560-659b7f14681e"
                }
            },
            "request": {
                "method": "PUT",
                "url": "Observation/0cba710a-220f-4015-8010-41d3deb6bddf"
            }
        },
        {
            "fullUrl": "urn:uuid:019bc64e-e406-4542-a294-0140dad41e8b",
            "resource": {
                "resourceType": "Observation",
                "id": "019bc64e-e406-4542-a294-0140dad41e8b",
                "meta": {
                    "profile": [
                        "http://hl7.org/fhir/us/core/StructureDefinition/us-core-observation-lab"
                    ],
                    "security": [
                        {
                            "system": "http://terminology.hl7.org/CodeSystem/v3-ActReason",
                            "code": "HTEST",
                            "display": "test health data"
                        }
                    ]
                },
                "status": "final",
                "code": {
                    "coding": [
                        {
                            "system": "http://loinc.org",
                            "code": "60956-0",
                            "display": "Intracranial pressure (ICP)"
                        }
                    ]
                },
                "category": [
                    {
                        "coding": [
                            {
                                "system": "http://terminology.hl7.org/CodeSystem/observation-category",
                                "code": "laboratory",
                                "display": "Laboratory"
                            }
                        ]
                    }
                ],
                "effectiveDateTime": "2021-01-15T11:01:23+00:00",
                "valueQuantity": {
                    "value": 8.0,
                    "unit": "mmHg",
                    "system": "http://unitsofmeasure.org",
                    "code": "mmHg"
                },
                "subject": {
                    "reference": "Patient/9139a350-c5d9-4a7c-8560-659b7f14681e"
                }
            },
            "request": {
                "method": "PUT",
                "url": "Observation/019bc64e-e406-4542-a294-0140dad41e8b"
            }
        },
        {
            "fullUrl": "urn:uuid:0250df85-dada-486a-981a-e248a67653a2",
            "resource": {
                "resourceType": "MedicationRequest",
                "id": "0250df85-dada-486a-981a-e248a67653a2",
                "meta": {
                    "profile": [
                        "http://hl7.org/fhir/us/core/StructureDefinition/us-core-medicationrequest"
                    ],
                    "security": [
                        {
                            "system": "http://terminology.hl7.org/CodeSystem/v3-ActReason",
                            "code": "HTEST",
                            "display": "test health data"
                        }
                    ]
                },
                "status": "active",
                "intent": "order",
                "medicationCodeableConcept": {
                    "coding": [
                        {
                            "system": "http://www.nlm.nih.gov/research/umls/rxnorm",
                            "code": "32675",
                            "display": "oxybutynin"
                        }
                    ]
                },
                "authoredOn": "2019-06-24T00:00:00+00:00",
                "dosageInstruction": [
                    {
                        "text": "Take 1 tablet (5 mg) by mouth twice daily."
                    }
                ],
                "subject": {
                    "reference": "Patient/9139a350-c5d9-4a7c-8560-659b7f14681e"
                },
                "encounter": {
                    "reference": "Encounter/461d8935-13fb-4e0d-b498-02739eb05807"
                }
            },
            "request": {
                "method": "PUT",
                "url": "MedicationRequest/0250df85-dada-486a-981a-e248a67653a2"
            }
        },
        {
            "fullUrl": "urn:uuid:384e41f0-abdf-4546-b8ba-04e2c38e8fee",
            "resource": {
                "resourceType": "MedicationRequest",
                "id": "384e41f0-abdf-4546-b8ba-04e2c38e8fee",
                "meta": {
                    "profile": [
                        "http://hl7.org/fhir/us/core/StructureDefinition/us-core-medicationrequest"
                    ],
                    "security": [
                        {
                            "system": "http://terminology.hl7.org/CodeSystem/v3-ActReason",
                            "code": "HTEST",
                            "display": "test health data"
                        }
                    ]
                },
                "status": "active",
                "intent": "order",
                "medicationCodeableConcept": {
                    "coding": [
                        {
                            "system": "http://www.nlm.nih.gov/research/umls/rxnorm",
                            "code": "309045",
                            "display": "cefaclor 250 MG Oral Capsule"
                        }
                    ]
                },
                "authoredOn": "2019-06-24T00:00:00+00:00",
                "dosageInstruction": [
                    {
                        "text": "Take 1 capsule (250 mg) by mouth every 8 hours (3 times a day)."
                    }
                ],
                "subject": {
                    "reference": "Patient/9139a350-c5d9-4a7c-8560-659b7f14681e"
                },
                "encounter": {
                    "reference": "Encounter/461d8935-13fb-4e0d-b498-02739eb05807"
                }
            },
            "request": {
                "method": "PUT",
                "url": "MedicationRequest/384e41f0-abdf-4546-b8ba-04e2c38e8fee"
            }
        },
        {
            "fullUrl": "urn:uuid:fed5960c-ab46-4f39-adcf-13304e861ac0",
            "resource": {
                "resourceType": "MedicationRequest",
                "id": "fed5960c-ab46-4f39-adcf-13304e861ac0",
                "meta": {
                    "profile": [
                        "http://hl7.org/fhir/us/core/StructureDefinition/us-core-medicationrequest"
                    ],
                    "security": [
                        {
                            "system": "http://terminology.hl7.org/CodeSystem/v3-ActReason",
                            "code": "HTEST",
                            "display": "test health data"
                        }
                    ]
                },
                "status": "active",
                "intent": "order",
                "medicationCodeableConcept": {
                    "coding": [
                        {
                            "system": "http://www.nlm.nih.gov/research/umls/rxnorm",
                            "code": "1292",
                            "display": "baclofen"
                        }
                    ]
                },
                "authoredOn": "2019-06-24T00:00:00+00:00",
                "dosageInstruction": [
                    {
                        "text": "Take 1 tablet (10 mg) by mouth 3 times daily."
                    }
                ],
                "subject": {
                    "reference": "Patient/9139a350-c5d9-4a7c-8560-659b7f14681e"
                },
                "encounter": {
                    "reference": "Encounter/461d8935-13fb-4e0d-b498-02739eb05807"
                }
            },
            "request": {
                "method": "PUT",
                "url": "MedicationRequest/fed5960c-ab46-4f39-adcf-13304e861ac0"
            }
        }
    ]
}