{
    "resourceType": "Bundle",
    "id": "03c2edc5-d1df-4641-af3e-aaab705059db",
    "type": "batch",
    "entry": [
        {
            "fullUrl": "urn:uuid:a8c11ae2-5060-43b5-89a4-f7bb532a54f4",
            "resource": {
                "resourceType": "Patient",
                "id": "a8c11ae2-5060-43b5-89a4-f7bb532a54f4",
                "meta": {
                    "profile": [
                        "http://hl7.org/fhir/us/core/StructureDefinition/us-core-patient|3.1.1"
                    ]
                },
                "extension": [
                    {
                        "extension": [
                            {
                                "url": "ombCategory",
                                "valueCoding": {
                                    "system": "urn:oid:2.16.840.1.113883.6.238",
                                    "code": "2106-3",
                                    "display": "White"
                                }
                            },
                            {
                                "url": "text",
                                "valueString": "White"
                            }
                        ],
                        "url": "http://hl7.org/fhir/us/core/StructureDefinition/us-core-race"
                    },
                    {
                        "extension": [
                            {
                                "url": "ombCategory",
                                "valueCoding": {
                                    "system": "urn:oid:2.16.840.1.113883.6.238",
                                    "code": "2135-2",
                                    "display": "Hispanic or Latino"
                                }
                            },
                            {
                                "url": "text",
                                "valueString": "Hispanic or Latino"
                            }
                        ],
                        "url": "http://hl7.org/fhir/us/core/StructureDefinition/us-core-ethnicity"
                    }
                ],
                "identifier": [
                    {
                        "use": "usual",
                        "type": {
                            "coding": [
                                {
                                    "system": "http://terminology.hl7.org/CodeSystem/v2-0203",
                                    "code": "MR",
                                    "display": "Medical Record Number"
                                }
                            ],
                            "text": "Medical Record Number"
                        },
                        "system": "http://hospital.smarthealthit.org",
                        "value": "966139"
                    }
                ],
                "name": [
                    {
                        "use": "official",
                        "family": "Smith",
                        "given": [
                            "Charles",
                            "C"
                        ]
                    }
                ],
                "gender": "male",
                "birthDate": "1982-06-15",
                "deceasedBoolean": false,
                "address": [
                    {
                        "use": "home",
                        "line": [
                            "0759 Sharp Corner"
                        ],
                        "city": "Pamelaland",
                        "state": "CT",
                        "country": "US"
                    }
                ]
            },
            "request": {
                "method": "PUT",
                "url": "Patient/a8c11ae2-5060-43b5-89a4-f7bb532a54f4"
            }
        },
        {
            "fullUrl": "urn:uuid:a3cb88a7-efe2-4212-9833-344b5f24b61f",
            "resource": {
                "resourceType": "Observation",
                "id": "a3cb88a7-efe2-4212-9833-344b5f24b61f",
                "meta": {
                    "profile": [
                        "http://hl7.org/fhir/us/core/StructureDefinition/us-core-observation-smokingstatus|3.1.1"
                    ]
                },
                "status": "final",
                "category": [
                    {
                        "coding": [
                            {
                                "system": "http://terminology.hl7.org/CodeSystem/observation-category",
                                "code": "social-history",
                                "display": "Social History"
                            }
                        ]
                    }
                ],
                "code": {
                    "coding": [
                        {
                            "system": "http://loinc.org",
                            "code": "72166-2",
                            "display": "Tobacco smoking status"
                        }
                    ],
                    "text": "Tobacco smoking status"
                },
                "subject": {
                    "reference": "Patient/a8c11ae2-5060-43b5-89a4-f7bb532a54f4"
                },
                "effectiveDateTime": "2024-09-03T03:55:10.439462+00:00",
                "valueCodeableConcept": {
                    "coding": [
                        {
                            "system": "http://snomed.info/sct",
                            "code": "8392000",
                            "display": "Non-smoker (finding)"
                        }
                    ],
                    "text": "Non-smoker (finding)"
                }
            },
            "request": {
                "method": "PUT",
                "url": "Observation/a3cb88a7-efe2-4212-9833-344b5f24b61f"
            }
        },
        {
            "fullUrl": "urn:uuid:a2dafb0f-1f76-42ad-8f91-1ac3af2d98d9",
            "resource": {
                "resourceType": "Practitioner",
                "id": "a2dafb0f-1f76-42ad-8f91-1ac3af2d98d9",
                "meta": {
                    "profile": [
                        "http://hl7.org/fhir/us/core/StructureDefinition/us-core-practitioner|3.1.1"
                    ]
                },
                "identifier": [
                    {
                        "system": "http://hl7.org/fhir/sid/us-npi",
                        "value": "9559687177"
                    }
                ],
                "name": [
                    {
                        "use": "official",
                        "family": "Little",
                        "given": [
                            "Anna"
                        ]
                    }
                ]
            },
            "request": {
                "method": "PUT",
                "url": "Practitioner/a2dafb0f-1f76-42ad-8f91-1ac3af2d98d9"
            }
        },
        {
            "fullUrl": "urn:uuid:ac0a82c9-65fd-44d1-8719-8ad61b7fe254",
            "resource": {
                "resourceType": "Organization",
                "id": "ac0a82c9-65fd-44d1-8719-8ad61b7fe254",
                "meta": {
                    "profile": [
                        "http://hl7.org/fhir/us/core/StructureDefinition/us-core-organization|3.1.1"
                    ]
                },
                "active": true,
                "name": "Hospital C",
                "address": [
                    {
                        "use": "work",
                        "line": [
                            "648 Jacqueline Parkways Apt. 438"
                        ],
                        "state": "CT",
                        "country": "US"
                    }
                ]
            },
            "request": {
                "method": "PUT",
                "url": "Organization/ac0a82c9-65fd-44d1-8719-8ad61b7fe254"
            }
        },
        {
            "fullUrl": "urn:uuid:0cf26fc2-f140-4eed-921e-8e28385fd4ea",
            "resource": {
                "resourceType": "Encounter",
                "id": "0cf26fc2-f140-4eed-921e-8e28385fd4ea",
                "meta": {
                    "profile": [
                        "http://hl7.org/fhir/us/core/StructureDefinition/us-core-encounter|3.1.1"
                    ]
                },
                "status": "finished",
                "class": {
                    "system": "http://terminology.hl7.org/CodeSystem/v3-ActCode",
                    "code": "AMB",
                    "display": "ambulatory"
                },
                "type": [
                    {
                        "coding": [
                            {
                                "system": "http://www.ama-assn.org/go/cpt",
                                "code": "99213",
                                "display": "Office or other outpatient visit for the evaluation and management of an established patient, which requires a medically appropriate history and/or examination and low level of medical decision making. When using time for code selection, 20-29 minutes of total time is spent on the date of the encounter."
                            }
                        ],
                        "text": "Office Visit"
                    }
                ],
                "subject": {
                    "reference": "Patient/a8c11ae2-5060-43b5-89a4-f7bb532a54f4"
                },
                "participant": [
                    {
                        "individual": {
                            "reference": "Practitioner/a2dafb0f-1f76-42ad-8f91-1ac3af2d98d9"
                        }
                    }
                ],
                "period": {
                    "start": "2024-02-18T03:51:29-04:00",
                    "end": "2024-04-19T03:21:52-04:00"
                },
                "reasonCode": [
                    {
                        "coding": [
                            {
                                "system": "https://hl7.org/fhir/codesystem-encounter-reason-use",
                                "code": "HC",
                                "display": "Health Concern"
                            }
                        ],
                        "text": "Health Concern"
                    }
                ],
                "serviceProvider": {
                    "reference": "Organization/ac0a82c9-65fd-44d1-8719-8ad61b7fe254"
                }
            },
            "request": {
                "method": "PUT",
                "url": "Encounter/0cf26fc2-f140-4eed-921e-8e28385fd4ea"
            }
        },
        {
            "fullUrl": "urn:uuid:31b91c5a-5625-4b93-88f8-1a3e51be560a",
            "resource": {
                "resourceType": "Condition",
                "id": "31b91c5a-5625-4b93-88f8-1a3e51be560a",
                "meta": {
                    "profile": [
                        "http://hl7.org/fhir/us/core/StructureDefinition/us-core-condition|3.1.1"
                    ]
                },
                "clinicalStatus": {
                    "coding": [
                        {
                            "system": "http://terminology.hl7.org/CodeSystem/condition-clinical",
                            "code": "active",
                            "display": "Active"
                        }
                    ]
                },
                "verificationStatus": {
                    "coding": [
                        {
                            "system": "http://terminology.hl7.org/CodeSystem/condition-ver-status",
                            "code": "confirmed",
                            "display": "Confirmed"
                        }
                    ]
                },
                "category": [
                    {
                        "coding": [
                            {
                                "system": "http://terminology.hl7.org/CodeSystem/condition-category",
                                "code": "encounter-diagnosis",
                                "display": "Encounter Diagnosis"
                            }
                        ]
                    }
                ],
                "code": {
                    "coding": [
                        {
                            "system": "http://hl7.org/fhir/sid/icd-10-cm",
                            "code": "A54.00",
                            "display": "Gonococcal infection of lower genitourinary tract, unspecified"
                        }
                    ],
                    "text": "Gonococcal infection of lower genitourinary tract, unspecified"
                },
                "subject": {
                    "reference": "Patient/a8c11ae2-5060-43b5-89a4-f7bb532a54f4"
                },
                "encounter": {
                    "reference": "Encounter/0cf26fc2-f140-4eed-921e-8e28385fd4ea"
                },
                "recordedDate": "2024-06-27T10:41:18-04:00"
            },
            "request": {
                "method": "PUT",
                "url": "Condition/31b91c5a-5625-4b93-88f8-1a3e51be560a"
            }
        },
        {
            "fullUrl": "urn:uuid:595a1f14-b006-40b5-9b87-803425e971cd",
            "resource": {
                "resourceType": "MedicationRequest",
                "id": "595a1f14-b006-40b5-9b87-803425e971cd",
                "meta": {
                    "profile": [
                        "http://hl7.org/fhir/us/core/StructureDefinition/us-core-medicationrequest|3.1.1"
                    ]
                },
                "status": "completed",
                "intent": "order",
                "medicationCodeableConcept": {
                    "coding": [
                        {
                            "system": "http://www.nlm.nih.gov/research/umls/rxnorm",
                            "code": "309090",
                            "display": "ceftriaxone 100 MG/ML Injectable Solution"
                        }
                    ],
                    "text": "ceftriaxone 100 MG/ML Injectable Solution"
                },
                "subject": {
                    "reference": "Patient/a8c11ae2-5060-43b5-89a4-f7bb532a54f4"
                },
                "encounter": {
                    "reference": "Encounter/0cf26fc2-f140-4eed-921e-8e28385fd4ea"
                },
                "authoredOn": "2024-05-02T21:14:48-04:00",
                "requester": {
                    "reference": "Practitioner/a2dafb0f-1f76-42ad-8f91-1ac3af2d98d9"
                },
                "reasonCode": [
                    {
                        "coding": [
                            {
                                "system": "http://hl7.org/fhir/sid/icd-10-cm",
                                "code": "A54.00",
                                "display": "Gonococcal infection of lower genitourinary tract, unspecified"
                            }
                        ],
                        "text": "Gonococcal infection of lower genitourinary tract, unspecified"
                    },
                    {
                        "coding": [
                            {
                                "system": "http://snomed.info/sct",
                                "code": "788961008",
                                "display": "Infection of the penile urethra caused by Neisseria gonorrhoeae (disorder)"
                            }
                        ],
                        "text": "Infection of the penile urethra caused by Neisseria gonorrhoeae (disorder)"
                    }
                ],
                "reasonReference": [
                    {
                        "reference": "Condition/31b91c5a-5625-4b93-88f8-1a3e51be560a"
                    }
                ],
                "dosageInstruction": [
                    {
                        "text": "IM 500 mg/single dose"
                    }
                ]
            },
            "request": {
                "method": "PUT",
                "url": "MedicationRequest/595a1f14-b006-40b5-9b87-803425e971cd"
            }
        },
        {
            "fullUrl": "urn:uuid:a127fd6f-4878-4473-b7c7-9544c414fd22",
            "resource": {
                "resourceType": "Specimen",
                "id": "a127fd6f-4878-4473-b7c7-9544c414fd22",
                "type": {
                    "coding": [
                        {
                            "system": "http://terminology.hl7.org/CodeSystem/v2-0487",
                            "code": "SMN",
                            "display": "Seminal fluid"
                        }
                    ]
                },
                "subject": {
                    "reference": "Patient/a8c11ae2-5060-43b5-89a4-f7bb532a54f4"
                }
            },
            "request": {
                "method": "PUT",
                "url": "Specimen/a127fd6f-4878-4473-b7c7-9544c414fd22"
            }
        },
        {
            "fullUrl": "urn:uuid:24022288-9ede-4d85-93fc-4bdedae52708",
            "resource": {
                "resourceType": "Observation",
                "id": "24022288-9ede-4d85-93fc-4bdedae52708",
                "meta": {
                    "profile": [
                        "http://hl7.org/fhir/us/core/StructureDefinition/us-core-observation-lab|3.1.1"
                    ]
                },
                "status": "final",
                "category": [
                    {
                        "coding": [
                            {
                                "system": "http://terminology.hl7.org/CodeSystem/observation-category",
                                "code": "laboratory",
                                "display": "Laboratory"
                            }
                        ]
                    }
                ],
                "code": {
                    "coding": [
                        {
                            "system": "http://loinc.org",
                            "code": "47387-6",
                            "display": "Neisseria gonorrhoeae DNA [Presence] in Genital specimen by NAA with probe detection"
                        }
                    ]
                },
                "subject": {
                    "reference": "Patient/a8c11ae2-5060-43b5-89a4-f7bb532a54f4"
                },
                "encounter": {
                    "reference": "Encounter/0cf26fc2-f140-4eed-921e-8e28385fd4ea"
                },
                "effectiveDateTime": "2024-07-02",
                "valueCodeableConcept": {
                    "coding": [
                        {
                            "system": "http://snomed.info/sct",
                            "code": "260373001",
                            "display": "Detected"
                        }
                    ]
                },
                "interpretation": [
                    {
                        "coding": [
                            {
                                "system": "http://terminology.hl7.org/CodeSystem/v3-ObservationInterpretation",
                                "code": "POS",
                                "display": "Positive"
                            }
                        ]
                    }
                ],
                "specimen": {
                    "reference": "Specimen/a127fd6f-4878-4473-b7c7-9544c414fd22"
                }
            },
            "request": {
                "method": "PUT",
                "url": "Observation/24022288-9ede-4d85-93fc-4bdedae52708"
            }
        },
        {
            "fullUrl": "urn:uuid:86d9dc02-620f-4edb-982a-757607203e1b",
            "resource": {
                "resourceType": "Observation",
                "id": "86d9dc02-620f-4edb-982a-757607203e1b",
                "meta": {
                    "profile": [
                        "http://hl7.org/fhir/us/core/StructureDefinition/us-core-observation-pregnancystatus"
                    ]
                },
                "status": "final",
                "category": [
                    {
                        "coding": [
                            {
                                "system": "http://terminology.hl7.org/CodeSystem/observation-category",
                                "code": "social-history",
                                "display": "Social History"
                            }
                        ]
                    }
                ],
                "code": {
                    "coding": [
                        {
                            "system": "http://loinc.org",
                            "code": "82810-3",
                            "display": "Pregnancy status"
                        }
                    ],
                    "text": "Pregnancy status"
                },
                "subject": {
                    "reference": "Patient/a8c11ae2-5060-43b5-89a4-f7bb532a54f4"
                },
                "effectiveDateTime": "2024-09-03T03:55:10.441339+00:00",
                "valueCodeableConcept": {
                    "coding": [
                        {
                            "system": "http://snomed.info/sct",
                            "code": "60001007",
                            "display": "Not pregnant (finding)"
                        }
                    ],
                    "text": "Not pregnant (finding)"
                }
            },
            "request": {
                "method": "PUT",
                "url": "Observation/86d9dc02-620f-4edb-982a-757607203e1b"
            }
        }
    ]
}